File: data/tga.txt
animal_id	WaterLost_CB	OMLost_CB	CO2Lost_CB	Phosphates_CB	Mineral_CB	Phosphates/OM_CB	CO3/Phosphates_CB	WaterLost_MB	OMLost_MB	CO2Lost_MB	Phosphates_MB	Mineral_MB	Phosphates/OM_MB	CO3/Phosphates_MB
1	8.63895	24.55101	4.44988	62.36015	66.81004	2.54002	10.70367	8.789	50.81084	2.87333	37.52684	40.40016	0.73856	11.48509
3	8.46886	24.04613	4.6905	62.79451	67.485	2.61142	11.20439	9.04156	37.37897	4.43032	49.14914	53.57946	1.31489	13.52104
7	8.97207	23.26652	4.61241	63.149	67.76141	2.71416	10.95602
9	10.90999	20.30538	7.99163	60.79301	68.78463	2.99394	19.71845
11	9.93625	22.12042	4.89844	63.04488	67.94332	2.85008	11.65466
13	8.49108	22.67872	5.27978	63.55042	68.8302	2.80221	12.46203	9.83291	55.86142	1.92278	32.38289	34.30567	0.5797	8.90647
15	9.25907	21.96614	4.72953	64.04526	68.77479	2.91564	11.077
17	--	--	--	--	--	--	--	8.07255	67.1436	1.53651	23.24735	24.78385	0.34623	9.9141
19	8.76673	22.79692	5.33466	63.10168	68.43634	2.76799	12.68111
21	8.15083	23.39799	4.31528	64.1359	68.45118	2.74109	10.09251	9.81419	52.02996	2.7339	35.42195	38.15585	0.6808	11.57712
23	8.80634	23.79257	4.00349	63.3976	67.40109	2.6646	9.47235	9.43092	51.00788	2.18433	37.37688	39.56121	0.73277	8.76611
25	9.35073	23.16785	5.00253	62.47889	67.48143	2.69679	12.01014
27	8.42361	24.62788	3.8627	63.08581	66.94851	2.56156	9.1844	9.36772	50.21214	2.22228	38.19786	40.42014	0.76073	8.72672
30	9.81773	22.21053	4.9809	62.99083	67.97173	2.83608	11.86102	8.53471	60.53186	2.83063	28.1028	30.93343	0.46426	15.1086
32	10.54316	22.83838	4.58759	62.03087	66.61846	2.71608	11.09349
34	8.47017	22.5694	5.1073	63.85312	68.96043	2.82919	11.99778
36	10.15993	22.11075	4.81918	62.91014	67.72932	2.84523	11.49063
38	7.70408	24.66211	4.42014	63.21367	67.63381	2.56319	10.48857	8.07249	64.37229	2.9866	24.56862	27.55522	0.38166	18.23421
40	10.87751	21.97915	4.79211	62.35123	67.14334	2.83683	11.52851
43	8.78487	24.44295	4.19016	62.58201	66.77217	2.56033	10.04321	9.75342	43.88252	3.86053	42.50353	46.36406	0.96858	13.62427
45	8.13398	24.1434	4.12017	63.60245	67.72262	2.63436	9.71701	8.23558	61.16187	2.29041	28.31214	30.60254	0.46291	12.13476
49	11.00146	22.23441	6.35356	60.41058	66.76413	2.71699	15.77594
51	8.34301	24.71379	4.0125	62.9307	66.9432	2.54638	9.56409	9.33773	55.08867	2.5973	32.9763	35.5736	0.5986	11.8144
53	8.74252	24.21867	4.36426	62.67455	67.03881	2.58786	10.44505	8.68514	52.72466	1.79818	36.79202	38.59021	0.69781	7.33114
55	9.29086	24.44009	3.81299	62.45605	66.26904	2.55548	9.15763	9.16886	64.12021	2.36278	24.34815	26.71093	0.37973	14.55619
57	9.32031	23.11971	3.96818	63.5918	67.55998	2.75055	9.36013	9.03584	57.05836	2.26965	31.63614	33.90579	0.55445	10.76135
59	10.59827	22.10726	4.67546	62.619	67.29447	2.83251	11.19979
61	9.06863	24.00356	4.2345	62.6933	66.9278	2.61183	10.13147	9.29636	49.88467	2.34288	38.47609	40.81897	0.7713	9.13377
64	8.4951	24.16541	3.83859	63.5009	67.33949	2.62776	9.06741	8.25125	55.78319	2.74104	33.22452	35.96555	0.5956	12.37506
66	8.59653	21.33871	5.16216	64.9026	70.06476	3.04154	11.93056
68	10.66318	21.79859	4.38098	63.15725	67.53823	2.89731	10.40493
70	10.34467	23.11858	4.71345	61.82329	66.53674	2.67418	11.43611
74	8.43982	23.79174	4.47496	63.29349	67.76845	2.66031	10.60526	8.47539	63.12929	1.88489	26.51043	28.39532	0.41994	10.665
76	8.36126	25.56916	4.30553	61.76405	66.06958	2.41557	10.4564	9.89486	48.49299	3.87461	37.73754	41.61215	0.77821	15.40089
79	9.44221	21.79707	5.2368	63.52392	68.76072	2.91433	12.36574	9.97984	44.0877	2.70161	43.23085	45.93246	0.98056	9.37391
81	8.64169	24.54376	4.01818	62.79638	66.81456	2.55855	9.59811	9.20572	57.5108	2.13111	31.15238	33.28348	0.54168	10.26137
83	8.4192	24.98655	4.012	62.58225	66.59425	2.50464	9.61615	10.19015	31.20016	3.81108	54.79861	58.60969	1.75636	10.43206
86	9.38102	23.23497	3.67014	63.71386	67.384	2.74215	8.64053	8.24957	54.94433	2.48956	34.31653	36.80609	0.62457	10.88205
88	9.90508	22.41288	4.86825	62.81379	67.68204	2.80258	11.62543
91	8.30603	23.81689	4.10599	63.77108	67.87708	2.67756	9.65797	8.81134	40.20949	3.45504	47.52414	50.97918	1.18191	10.9051
93	8.05931	23.94318	4.30753	63.68999	67.99751	2.66005	10.1449	9.22544	56.8143	2.15243	31.80783	33.96026	0.55986	10.15047
96	8.81304	22.68287	5.50839	62.9957	68.50409	2.77724	13.11612	9.37635	55.16059	2.11436	33.3487	35.46306	0.60457	9.51024
98	9.12229	23.85643	4.02317	62.9981	67.02128	2.64072	9.57927	8.14979	61.59229	1.88133	28.37658	30.25791	0.46072	9.94481
102	8.73544	23.80853	4.34692	63.1091	67.45603	2.65069	10.33192	8.16263	60.08516	1.92902	29.82319	31.75221	0.49635	9.70227
105	8.65136	23.60187	4.13329	63.61348	67.74678	2.69527	9.74626	8.27065	61.13266	1.90238	28.6943	30.59669	0.46938	9.94475
107	8.7379	24.52962	3.95858	62.77391	66.73248	2.55911	9.45913	8.53223	60.42678	2.24177	28.79922	31.04099	0.4766	11.67623
109	9.32759	23.69934	4.09957	62.8735	66.97308	2.65296	9.78053	8.68971	58.50345	2.02652	30.78031	32.80683	0.52613	9.87575
111	8.32105	24.43689	4.20714	63.03491	67.24205	2.5795	10.01145	9.06591	54.16194	2.37014	34.40201	36.77215	0.63517	10.33433
113	8.52304	24.41849	4.35203	62.70644	67.05847	2.56799	10.41049	9.06722	49.44264	2.6907	38.79944	41.49013	0.78474	10.40233
115	9.06299	25.1599	3.76892	62.0082	65.77712	2.46457	9.11714	8.66242	49.24057	2.88421	39.2128	42.09701	0.79635	11.0329
118	8.85599	23.78889	3.89658	63.45855	67.35512	2.66757	9.21053	8.83094	55.20559	2.34191	33.62155	35.96346	0.60902	10.44824
121	8.23468	24.84907	3.92931	62.98695	66.91625	2.53478	9.35743	8.78356	46.0905	2.70427	42.42167	45.12594	0.9204	9.56211
123	8.86749	24.31119	3.75752	63.06379	66.82132	2.59402	8.93743	9.62245	54.131	2.34792	33.89862	36.24655	0.62623	10.38946
125	9.63044	24.81445	3.37565	62.17945	65.5551	2.50578	8.14332	8.49482	59.1094	2.63331	29.76248	32.39578	0.50352	13.2716
128	8.79648	24.03274	3.84127	63.3295	67.17078	2.63513	9.09831	9.09544	52.85825	2.1243	35.92201	38.04631	0.67959	8.87047
131	9.23809	24.1973	3.80849	62.75612	66.5646	2.59352	9.10306	9.14422	54.98689	2.40225	33.46664	35.86889	0.60863	10.76706
133	8.82902	24.08719	4.00057	63.08322	67.08379	2.61895	9.51261	8.41311	59.40611	1.9098	30.27099	32.18079	0.50956	9.4635
137	9.43078	23.55585	3.72168	63.2917	67.01338	2.68688	8.82029	8.38925	61.35791	2.3217	27.93114	30.25284	0.45522	12.46832
139	9.1483	23.93178	3.99158	62.92834	66.91992	2.62949	9.51459	9.27475	43.38221	3.0555	44.28754	47.34304	1.02087	10.34885
144	9.18152	23.54332	3.90158	63.37358	67.27516	2.69179	9.23471	8.77358	54.17453	2.47904	34.57285	37.05189	0.63818	10.7557
146	9.26789	24.42876	3.73276	62.57058	66.30335	2.56135	8.94853	9.70178	35.9529	3.52617	50.81915	54.34532	1.41349	10.40801
148	8.45194	24.12141	4.10391	63.32274	67.42665	2.62517	9.72141	8.5733	53.64511	3.13844	34.64314	37.78158	0.64578	13.58902
150	9.44573	23.63265	3.72223	63.19939	66.92163	2.67424	8.8345	8.84007	54.92794	2.51318	33.7188	36.23199	0.61387	11.18003
154	9.00596	24.35655	3.87964	62.75785	66.63749	2.57663	9.27287	9.65602	43.33379	2.93406	44.07614	47.0102	1.01713	9.98519
156	9.19046	23.77785	3.59866	63.43303	67.03169	2.66774	8.50975	8.84229	50.96826	3.1435	37.04595	40.18945	0.72684	12.72812
158	8.5949	23.9092	3.80702	63.68889	67.4959	2.66378	8.96629	9.47223	39.38293	3.02361	48.12123	51.14484	1.22188	9.42498
161	8.62164	23.80495	3.9783	63.59511	67.57341	2.67151	9.38349	8.55253	54.95749	2.47377	34.01621	36.48998	0.61895	10.90849
163	8.90451	24.56322	3.64933	62.88294	66.53227	2.56004	8.70506	7.98004	67.37486	1.81555	22.82955	24.6451	0.33884	11.92893
166	8.96665	25.28677	3.97015	61.77643	65.74658	2.44303	9.63997	9.14083	61.23718	2.11759	27.5044	29.62199	0.44915	11.54864
168	8.54115	24.07867	3.96792	63.41226	67.38018	2.63354	9.38601	18.17963	60.32003	2.31377	19.18657	21.50034	0.31808	18.08899
172	9.1812	24.40791	3.51437	62.89653	66.4109	2.57689	8.3813	9.37752	52.13585	2.32889	36.15774	38.48663	0.69353	9.66139
174	9.36936	24.52607	3.52855	62.57602	66.10456	2.55141	8.45823	8.60621	49.91004	2.90872	38.57503	41.48375	0.77289	11.31063
176	10.50722	22.59422	5.67806	61.2205	66.89856	2.70956	13.91214	8.933	58.37936	2.35065	30.33699	32.68764	0.51965	11.62269
182	10.16106	22.75506	6.90341	60.18047	67.08388	2.64471	17.20677	10.81908	39.86226	3.90853	45.41013	49.31866	1.13918	12.91075
185	10.14894	23.29765	5.77147	60.78194	66.55341	2.60893	14.24305	8.57088	55.91568	3.09805	32.41539	35.51344	0.57972	14.336
189	9.71456	24.1295	5.89063	60.26532	66.15594	2.49758	14.66174	9.54022	45.18222	3.73983	41.53773	45.27755	0.91934	13.50516
192	9.96886	23.00903	6.44728	60.57483	67.02211	2.63266	15.96524	--	--	--	--	--	--	--
194	10.58868	23.11645	5.30039	60.99448	66.29487	2.63857	13.03491	9.63722	47.80259	3.10927	39.45092	42.56019	0.82529	11.82205
198	10.19698	23.69843	5.60917	60.49542	66.10459	2.55272	13.90807	8.0983	65.45348	2.32885	24.11937	26.44822	0.3685	14.48326
200	10.39731	23.71919	5.71589	60.16762	65.88351	2.53666	14.24991	9.07736	57.09329	2.65707	31.17228	33.82935	0.54599	12.78575
202	9.96266	23.90458	4.81133	61.32143	66.13276	2.56526	11.76912	9.7529	49.35379	3.53882	37.35449	40.89331	0.75687	14.2104
205	9.21754	23.03763	5.51602	62.22881	67.74484	2.70118	13.29615	8.87471	56.40424	2.85805	31.863	34.72105	0.5649	13.4547
208	9.63824	23.34916	5.42151	61.5911	67.0126	2.63783	13.20364	9.50012	46.52475	3.53026	40.44487	43.97513	0.86932	13.09284
211	9.77875	23.52858	--	60.65629	66.69267	2.57798	14.92766	9.05311	62.35476	2.17892	26.41321	28.59213	0.4236	12.37406
216	10.63447	24.56241	4.25978	60.54333	64.80312	2.46488	10.55388	8.85963	59.05846	2.4724	29.6095	32.0819	0.50136	12.52503
220	9.91369	23.20934	5.38204	61.49493	66.87697	2.64958	13.128	9.35982	41.93673	2.92976	45.77369	48.70345	1.09149	9.60081
223	9.26154	24.24727	4.27531	62.21588	66.49119	2.56589	10.30761	7.98253	63.00507	2.02833	26.98406	29.0124	0.42828	11.27517
226	9.76248	22.87055	5.00004	62.36692	67.36696	2.72695	12.0257	7.74682	65.83894	1.78657	24.62767	26.41424	0.37406	10.88149
228	8.40197	24.48526	4.81204	62.30074	67.11278	2.54442	11.58582	8.63912	55.82683	3.25532	32.27872	35.53405	0.57819	15.12755
231	10.02007	22.70794	5.31578	61.95621	67.27198	2.72839	12.86984	7.51592	71.90296	2.02305	18.55807	20.58112	0.2581	16.35179
234	10.56267	23.79229	5.42399	60.22104	65.64504	2.53112	13.51021	8.78032	57.38208	2.99528	30.84232	33.8376	0.53749	14.5674
238	10.42146	23.98025	5.13739	60.4609	65.59828	2.52128	12.74556	9.20611	44.44101	4.17697	42.17591	46.35288	0.94903	14.85553
240	8.39068	25.025	4.17917	62.40515	66.58432	2.49371	10.04524	9.27346	40.40874	3.53953	46.77826	50.31779	1.15763	11.34993
243	10.3761	23.25902	4.84326	61.52161	66.36488	2.64506	11.80869	9.81425	33.19675	3.64083	53.34816	56.989	1.60703	10.237
246	10.28652	23.43559	6.48932	59.78857	66.27789	2.55119	16.28068	9.14228	55.63703	2.54668	32.67401	35.22069	0.58727	11.6913
248	10.49623	23.31861	5.669	60.51615	66.18516	2.59519	14.05163	9.30674	34.87828	3.347	52.46798	55.81498	1.50432	9.56869
250	9.31477	25.20943	3.90201	61.57379	65.47579	2.44249	9.50568	7.97182	63.09424	1.61704	27.3169	28.93394	0.43295	8.87934
252	10.644	23.36319	5.51065	60.48216	65.99281	2.58878	13.66681	9.14709	43.96021	3.20622	43.68648	46.8927	0.99377	11.00875
255	9.06012	25.1145	3.86133	61.96404	65.82538	2.46726	9.34736	9.48154	62.34292	2.11656	26.05898	28.17554	0.41799	12.18331
257	8.19809	25.09171	4.22966	62.48055	66.7102	2.49009	10.15434	9.06468	56.76401	2.62933	31.54197	34.17131	0.55567	12.50398
261	8.41346	25.44319	4.54917	61.59418	66.14335	2.42085	11.07856	8.87879	63.79858	2.4363	24.88633	27.32264	0.39008	14.68459
263	9.78745	22.22166	7.09514	60.89575	67.99089	2.74038	17.47694	6.96708	61.44368	2.07686	29.51237	31.58924	0.48032	10.55588
265	--	--	--	--	--	--	--	6.97002	53.3955	2.84663	36.78785	39.63448	0.68897	11.60695
267	9.58455	22.53227	6.11776	61.76543	67.88318	2.7412	14.85724	8.90425	44.18293	3.09738	43.81544	46.91282	0.99168	10.60374
269	10.06775	24.56517	4.76803	60.59905	65.36708	2.46687	11.80223	9.37649	48.46502	2.73283	39.42567	42.1585	0.81349	10.39738
275	10.07463	23.66889	5.6506	60.60588	66.25648	2.56057	13.98528	8.6629	53.78757	2.98877	34.56077	37.54954	0.64254	12.97181
277	--	--	--	--	--	--	--	9.39647	62.92893	2.25073	25.42387	27.6746	0.40401	13.27922
279	8.6311	22.82369	5.01646	63.52874	68.5452	2.78346	11.84454
282	9.45229	22.50558	5.59851	62.44362	68.04213	2.77458	13.44856	10.69866	41.50194	2.91233	44.88708	47.79941	1.08157	9.73218
289	9.81979	23.31554	4.92998	61.93469	66.86467	2.65637	11.93995
291	8.17582	23.39615	5.59725	62.83078	68.42803	2.68552	13.36267	--	--	--	--	--	--	--
294	8.94787	22.27488	4.83175	63.9455	68.77725	2.87074	11.33407	--	--	--	--	--	--	--
297	8.60061	23.16175	4.82779	63.40985	68.23764	2.7377	11.42045	--	--	--	--	--	--	--
299	9.80241	22.21186	5.56531	62.42042	67.98573	2.81023	13.37378	--	--	--	--	--	--	--
301	8.4134	23.26668	4.90782	63.4121	68.31992	2.72545	11.60934	--	--	--	--	--	--	--
307	10.00808	23.08469	5.25891	61.64833	66.90724	2.67053	12.79574	--	--	--	--	--	--	--
343	9.83798	22.09941	4.81773	63.24489	68.06261	2.86184	11.42636	7.03203	51.98139	3.62522	37.36136	40.98658	0.71874	14.5547
345	10.00952	22.80705	4.90479	62.27864	67.18343	2.73068	11.81334	8.91405	59.40482	1.90443	29.77671	31.68114	0.50125	9.59354
349	8.71479	23.67592	4.67248	62.93681	67.60929	2.65826	11.13613	8.39493	27.34887	4.25367	60.00253	64.2562	2.19397	10.63374
351	9.56108	22.33946	4.98162	63.11784	68.09946	2.8254	11.83886
354	10.3391	22.45314	4.75578	62.45198	67.20776	2.78144	11.42266
357	10.41271	22.95063	4.78548	61.85119	66.63666	2.69497	11.60563	9.64992	51.9236	3.69222	34.73425	38.42647	0.66895	15.94488
359	9.78692	22.31823	4.46657	63.42828	67.89485	2.84199	10.56289	9.02504	58.29254	1.958	30.72442	32.68242	0.52707	9.55916
361	9.00943	23.90512	4.87869	62.20677	67.08546	2.60224	11.76405	9.27138	56.54246	2.60673	31.57942	34.18615	0.55851	12.38177
363	10.18207	22.8342	4.65721	62.32652	66.98373	2.72953	11.20842
366	9.96715	21.90821	4.63109	63.49354	68.12463	2.89816	10.9407	10.01714	46.54709	2.62006	40.8157	43.43576	0.87687	9.62889
368	9.61162	23.56429	4.94565	61.87844	66.8241	2.62594	11.98879	8.23401	50.98922	3.88794	36.88883	40.77678	0.72346	15.80943
370	8.40743	23.42694	4.71204	63.45359	68.16564	2.70857	11.13895	9.56221	53.68413	2.31917	34.43448	36.75366	0.64143	10.10255
373	8.35914	24.06744	4.80904	62.76439	67.57342	2.60785	11.49307	6.68306	65.92159	3.30271	24.09264	27.39535	0.36547	20.56257
375	10.07485	23.48795	4.61582	61.82138	66.4372	2.63205	11.19958	6.91356	48.7826	3.55289	40.75095	44.30384	0.83536	13.07783
378	9.76075	22.64989	4.56509	63.02426	67.58936	2.78254	10.86509	9.38289	59.44329	2.17415	28.99967	31.17382	0.48785	11.24574
382	9.64396	22.9067	4.62603	62.82331	67.44935	2.74257	11.04534
384	8.8431	23.07008	4.92602	63.1608	68.08682	2.73778	11.69877	9.22765	56.16098	2.29924	32.31213	34.61137	0.57535	10.67357
386	9.99847	22.73718	4.36244	62.9019	67.26434	2.76648	10.40296
389	7.63913	24.67999	5.13382	62.54706	67.68088	2.53432	12.3119	10.41207	40.77214	4.92906	43.88672	48.81578	1.07639	16.84699
391	9.42469	22.62854	4.78721	63.15956	67.94677	2.79115	11.36933	6.96868	64.80984	3.18419	25.03729	28.22148	0.38632	19.07669
393	8.63431	22.99664	4.95147	63.41759	68.36905	2.75769	11.71158	9.67777	49.61414	2.47211	38.23599	40.7081	0.77067	9.69809
397	9.90198	23.08185	4.71197	62.3042	67.01618	2.69927	11.34428	6.53597	52.03293	4.44619	36.9849	41.43109	0.7108	18.03244
399	9.94203	22.37413	4.81237	62.87148	67.68385	2.81001	11.48145
401	8.44039	23.47171	5.23622	62.85168	68.08791	2.67776	12.49662	7.47709	63.02003	3.09788	26.405	29.50288	0.41899	17.59828
405	8.52042	24.37718	4.65216	62.45024	67.1024	2.56183	11.17409	9.44517	55.96229	2.14225	32.45029	34.59254	0.57986	9.90246
408	9.0236	23.30692	4.86687	62.80261	67.66948	2.69459	11.62421	6.98744	58.81363	3.01127	31.18767	34.19894	0.53028	14.48297
412	8.94361	23.82671	5.08638	62.14329	67.22967	2.60813	12.2774	9.92943	44.27405	2.86437	42.93216	45.79652	0.96969	10.00777
414	9.93824	22.52511	4.77224	62.7644	67.53664	2.78642	11.40513	7.36888	58.73905	3.95647	29.93559	33.89207	0.50964	19.82494
421	10.0267	22.57082	4.70337	62.69911	67.40248	2.77788	11.25225	10.113	54.33573	2.11903	33.43224	35.55127	0.61529	9.50743
423	10.28626	22.11633	4.57988	63.01753	67.59741	2.84937	10.90144	8.50789	62.69345	2.09082	26.70783	28.79866	0.42601	11.74276
1006	9.80558	23.61175	2.8933	63.68937	66.58267	2.69736	6.81424	8.65835	66.61407	1.69617	23.03141	24.72758	0.34574	11.04689
1008	10.25413	23.27203	2.66653	63.80731	66.47385	2.7418	6.26856	9.94879	38.00699	3.00415	49.04007	52.04422	1.29029	9.18885
1010	9.34555	24.56647	3.23264	62.85533	66.08797	2.55858	7.71447	9.3746	55.6316	2.06827	32.92553	34.9938	0.59185	9.4225
1012	9.33635	24.80168	3.1045	62.75747	65.86197	2.53037	7.42022	10.52032	41.21496	2.72877	45.53595	48.26472	1.10484	8.98883
1014	9.83697	23.52374	2.96413	63.67516	66.63929	2.70685	6.98261	10.36407	50.88621	2.0207	36.72902	38.74972	0.72179	8.25246
1016	10.16269	23.90418	2.98046	62.95267	65.93313	2.63354	7.10167	11.24336	49.11188	4.81597	34.82879	39.64475	0.70917	20.74132
1019	10.36908	23.8639	2.84403	62.92298	65.76701	2.63674	6.7798	13.13661	50.03677	2.14437	34.68226	36.82662	0.69314	9.27433
1022	10.2423	23.8462	2.70352	63.20797	65.91149	2.65065	6.41577	9.45213	57.09737	2.11406	31.33644	33.4505	0.54882	10.11948
1027	9.83762	23.37482	2.92686	63.86069	66.78756	2.73203	6.8748	10.0186	50.00744	2.43676	37.5372	39.97396	0.75063	9.73736
1031	10.26064	23.05666	2.61689	64.0658	66.68269	2.77862	6.12704	10.28593	42.759	3.17954	43.77553	46.95507	1.02377	10.89492
1033	10.84384	24.34676	2.41073	62.39867	64.80939	2.56291	5.79514	10.95966	30.21715	3.5141	55.30909	58.82319	1.83039	9.53034
1037	10.21354	23.52613	2.68822	63.57212	66.26033	2.70219	6.34292	10.83069	41.33443	2.76212	45.07277	47.83489	1.09044	9.1922
1039	10.53217	24.2489	2.93905	62.27988	65.21893	2.56836	7.07864	9.53244	40.45148	2.84804	47.16805	50.01608	1.16604	9.0571
1043	9.22323	24.03613	3.39871	63.34194	66.74065	2.63528	8.04848	10.96836	40.86337	2.69437	45.4739	48.16827	1.11283	8.88763
1045	10.59822	23.28894	2.877	63.23584	66.11284	2.71527	6.82445	10.53834	42.97016	2.74168	43.74982	46.4915	1.01814	9.40009
1047	10.49655	24.61311	2.73161	62.15874	64.89034	2.52543	6.59185	10.53966	41.20118	3.23191	45.02725	48.25916	1.09286	10.76652
1049	9.88203	23.81289	2.94917	63.35591	66.30508	2.66057	6.98238	9.57798	54.88473	2.21146	33.32582	35.53728	0.6072	9.95381
1052	10.12861	23.22988	2.76537	63.87614	66.64151	2.74974	6.4939	9.19193	61.45268	2.30658	27.0488	29.35538	0.44016	12.79119
1055	10.5103	23.46483	2.5765	63.44837	66.02487	2.70398	6.09118	10.30063	50.81072	2.4042	36.48445	38.88865	0.71805	9.88447
1059	10.06425	24.43942	2.77622	62.72012	65.49634	2.56635	6.63954	10.90261	41.66547	3.12635	44.30558	47.43193	1.06336	10.58451
1062	10.59668	23.05889	2.4863	63.85813	66.34443	2.76935	5.84021	10.70898	46.14241	2.44582	40.70279	43.14861	0.88211	9.01346
1064	10.58659	23.38977	2.82213	63.20152	66.02364	2.7021	6.69793	8.25498	69.99673	1.46295	20.28533	21.74828	0.2898	10.81782
1066	10.41509	22.85026	2.75231	63.98234	66.73464	2.80007	6.4525	10.20426	54.80416	2.15054	32.84104	34.99158	0.59924	9.82249
1069	9.59452	23.87332	2.9214	63.61077	66.53216	2.66451	6.88892	10.52514	38.26584	3.87183	47.33719	51.20902	1.23706	12.26888
1071	9.74515	24.22295	2.9753	63.0566	66.03189	2.60318	7.07768	11.00161	42.85499	3.4996	42.64381	46.1434	0.99507	12.30987
1073	10.28137	23.57691	2.8842	63.25752	66.14172	2.68303	6.83919	10.58997	51.62949	1.94315	35.83739	37.78055	0.69413	8.13322
1075	9.91739	24.57475	3.0064	62.50145	65.50785	2.54332	7.21519	10.79836	38.27507	3.28559	47.64099	50.92658	1.2447	10.34483
1078	9.87753	24.13775	3.00093	62.98379	65.98472	2.60935	7.14691	9.92865	41.94186	3.17939	44.9501	48.12949	1.07172	10.60972
1080	9.42869	23.803	3.11263	63.65567	66.76831	2.67427	7.3347	9.18207	58.83975	1.90245	30.07573	31.97819	0.51115	9.48832
1083	8.9988	24.284	3.11673	63.60048	66.71721	2.61903	7.35072	9.43812	52.3743	2.66975	35.51783	38.18758	0.67815	11.27495
1085	9.84505	23.42387	2.79236	63.93873	66.73108	2.72964	6.55085	10.05264	42.51153	3.14977	44.28605	47.43582	1.04174	10.66849
1087	9.6715	23.38513	2.9805	63.96287	66.94337	2.73519	6.9896	9.93834	45.01417	3.83312	41.21438	45.0475	0.91559	13.95067
1089	10.59641	23.67713	3.38789	62.33857	65.72646	2.63286	8.152	10.7757	49.32732	1.98601	37.91098	39.89698	0.76856	7.85792
1091	9.47977	23.82406	2.89921	63.79697	66.69617	2.67784	6.81664	10.34695	39.91378	3.76514	45.97413	49.73927	1.15184	12.28454
1095	10.80489	22.88694	4.28473	62.02344	66.30817	2.70999	10.36236	9.95104	56.53802	2.29335	31.2176	33.51094	0.55215	11.01949
1099	10.37239	23.18342	3.05986	63.38433	66.44419	2.73404	7.24121	10.80093	51.17115	2.9773	35.05062	38.02792	0.68497	12.74141
1102	10.60922	22.32267	4.40219	62.66592	67.06811	2.80728	10.53727	9.22141	44.79513	3.07063	42.91282	45.98346	0.95798	10.73327
1108	10.86108	22.1219	4.25368	62.76335	67.01702	2.83716	10.16599	11.17741	49.92615	2.45761	36.43883	38.89644	0.72985	10.11673
1110	11.39357	22.96418	4.12111	61.52114	65.64225	2.679	10.04803	10.50725	52.41156	2.64532	34.43587	37.08119	0.65703	11.5228
1116	11.16112	22.92943	4.06391	61.84554	65.90945	2.69721	9.85661	9.88169	46.79145	3.3869	39.93996	43.32686	0.85357	12.71996
1118	9.64184	23.92951	4.85868	61.56997	66.42865	2.57297	11.83697	10.57157	47.09402	2.62742	39.70699	42.33441	0.84314	9.92552
1122	9.88668	22.87229	4.35716	62.88387	67.24103	2.74935	10.39335	8.96681	58.9237	2.77339	29.33611	32.1095	0.49787	14.18075
1124	9.96658	23.03759	2.78864	64.20718	66.99582	2.78706	6.51478	11.44479	49.78463	2.6891	36.08148	38.77058	0.72475	11.17929
1126	9.89456	22.95226	5.30606	61.84712	67.15318	2.6946	12.86898	9.73012	56.71653	2.06172	31.49163	33.55335	0.55525	9.82034
1132	10.11236	22.45432	5.5789	61.85442	67.43332	2.75468	13.5291	10.68498	48.7243	2.84418	37.74653	40.59071	0.7747	11.30242
1136	10.09034	22.25339	6.15256	61.50372	67.65627	2.76379	15.00533	11.62388	38.30268	3.47806	46.59538	50.07344	1.2165	11.19657
1139	10.18415	22.38023	4.38692	63.04869	67.43561	2.81716	10.43698	9.89004	39.7795	2.58736	47.7431	50.33046	1.20019	8.129
1142	8.74027	24.26575	3.37344	63.62055	66.99398	2.62183	7.95365	7.43381	67.41344	1.8924	23.26035	25.15275	0.34504	12.20358
1146	10.55969	22.53417	4.58751	62.31864	66.90614	2.76552	11.04206	10.49965	46.55835	4.26275	38.67925	42.942	0.83077	16.53117
1148	10.8774	23.43422	4.44	61.24838	65.68838	2.61363	10.87375	9.76582	47.78691	3.57406	38.87322	42.44728	0.81347	13.7912
1151	10.18966	23.34113	4.35811	62.11111	66.46921	2.66102	10.52494	10.91718	50.11793	2.56756	36.39733	38.96489	0.72623	10.58137
1153	10.47013	23.13887	4.10551	62.28549	66.391	2.69181	9.88715	10.82607	43.37525	3.06226	42.73643	45.79869	0.98527	10.74818
1159	10.61441	22.25581	4.25746	62.87232	67.12979	2.82499	10.1574	11.09211	26.13653	5.07339	57.69797	62.77136	2.20756	13.18953
1162	9.63107	24.00376	2.97264	63.39253	66.36517	2.64094	7.03389	10.4489	48.16298	3.44959	37.93854	41.38812	0.78771	13.63885
1164	10.36346	22.92217	4.51508	62.19929	66.71437	2.7135	10.88857	11.21057	29.42488	4.44947	54.91508	59.36455	1.86628	12.15369
1167	10.60069	23.18459	4.24804	61.96668	66.21471	2.67275	10.28303	9.92606	40.51863	3.39322	46.16209	49.55531	1.13928	11.026
1169	10.5047	22.6706	4.48708	62.33761	66.8247	2.74971	10.79705	9.73188	50.17125	3.17592	36.92095	40.09687	0.7359	12.90292
1171	10.68147	23.83608	4.06471	61.41774	65.48245	2.57667	9.92722	10.3346	49.36984	2.72327	37.57228	40.29556	0.76104	10.87214
1174	9.80965	22.19732	5.9211	62.07193	67.99303	2.79637	14.30863	11.75838	36.65286	3.72302	47.86573	51.58876	1.30592	11.66708
1178	10.1561	23.45099	4.92341	61.4695	66.39291	2.62119	12.01428	10.10523	36.51155	2.45808	50.92514	53.38323	1.39477	7.24029
1180	11.25717	23.06615	4.13095	61.54573	65.67668	2.66823	10.068	11.06048	40.1057	2.9368	45.89702	48.83382	1.1444	9.59801
1182	9.15287	23.64492	3.11046	64.09175	67.20221	2.71059	7.27971	13.56347	35.75347	3.89225	46.79082	50.68306	1.30871	12.4776
1185	10.70871	22.31126	4.67724	62.30279	66.98002	2.79244	11.2609	11.65727	38.32582	4.14882	45.86809	50.01691	1.19679	13.56765
1189	10.21665	22.40403	4.45648	62.92284	67.37932	2.80855	10.62368	11.04829	37.99374	3.83192	47.12606	50.95798	1.24036	12.19681
1192	10.09739	22.39491	4.24383	63.26386	67.5077	2.82492	10.06222	11.243	44.98457	2.66268	41.10974	43.77243	0.91386	9.71552
1194	11.00601	22.92749	4.1044	61.9621	66.06651	2.70252	9.93608	11.17191	33.18397	3.97243	51.67169	55.64412	1.55713	11.53173
1196	10.11358	22.45907	4.27364	63.15371	67.42735	2.81195	10.15056	11.11789	50.23206	2.5116	36.13844	38.65005	0.71943	10.42492
1200	10.25334	22.86062	4.54695	62.33908	66.88604	2.72692	10.94086	10.13361	31.12094	3.83047	54.91497	58.74545	1.76457	10.46291
1203	11.21876	21.68134	4.09405	63.00585	67.0999	2.90599	9.74684
1208	11.20279	20.72056	4.21463	63.86202	68.07666	3.08206	9.89939
1211	10.50827	22.98103	4.17254	62.33816	66.5107	2.71259	10.0401
1214	10.62674	21.83827	3.81249	63.72249	67.53498	2.91793	8.97444
1217	10.77797	22.50575	3.82845	62.88783	66.71628	2.7943	9.13161
1220	11.86752	21.91007	3.86343	62.35898	66.22241	2.84613	9.2932
1222	9.31705	24.62687	3.17855	62.87753	66.05608	2.55321	7.58272	9.65423	45.94142	2.4093	41.99506	44.40435	0.9141	8.60564
1224	10.68534	22.00961	3.94143	63.36362	67.30505	2.87891	9.33051	--	--	--	--	--	--	--
1226	10.74791	22.65202	3.8979	62.70217	66.60007	2.76806	9.32479	--	--	--	--	--	--	--
1230	10.56676	22.02026	3.84191	63.57107	67.41298	2.88694	9.06523	--	--	--	--	--	--	--
1232	11.57542	21.57423	3.89476	62.95559	66.85035	2.91809	9.27977	--	--	--	--	--	--	--
1235	11.04557	22.18879	3.81006	62.95558	66.76564	2.83727	9.07796	--	--	--	--	--	--	--
1237	10.77704	21.94524	3.66046	63.61726	67.27772	2.89891	8.63082	--	--	--	--	--	--	--
	10.52371	23.36693	2.60679	63.50257	66.10936	2.71763	6.15753	9.52635	42.41276	2.79118	45.26972	48.0609	1.06736	9.24849
1244	10.48004	21.6727	4.66683	63.18042	67.84725	2.91521	11.07978	--	--	--	--	--	--	--
1246	10.94321	21.13842	4.51607	63.4023	67.91837	2.99939	10.68433	--	--	--	--	--	--	--
1248	9.96046	22.36954	4.15456	63.51543	67.66999	2.83937	9.81154	--	--	--	--	--	--	--
1250	11.14967	21.4967	4.08984	63.26379	67.35363	2.94295	9.69712	--	--	--	--	--	--	--
1254	10.51244	21.98927	4.48268	63.01562	67.49829	2.86574	10.67039	--	--	--	--	--	--	--
1257	11.08041	21.62387	4.46856	62.82717	67.29572	2.90545	10.66869	--	--	--	--	--	--	--
1260	10.73108	22.11134	4.29679	62.86079	67.15758	2.84292	10.25311	--	--	--	--	--	--	--
1262	11.15458	21.39913	3.96644	63.47984	67.44629	2.96647	9.37253	--	--	--	--	--	--	--
1264	10.46061	22.3259	4.08001	63.13347	67.21348	2.82781	9.69378
1267	11.63012	21.56035	3.758	63.05154	66.80953	2.92442	8.9403
1271	10.45949	22.25627	3.84868	63.43555	67.28423	2.85023	9.10061
1274	10.33513	21.78367	3.99619	63.88501	67.88119	2.9327	9.38292
1276	10.94474	22.14378	4.13899	62.77249	66.91148	2.83477	9.89046
1278	10.57302	21.99164	4.28173	63.1536	67.43534	2.87171	10.16981
1281	9.52159	23.43364	3.01821	64.02655	67.04476	2.73225	7.071	6.26107	58.70597	3.87641	31.15654	35.03295	0.53072	18.66257
1286	10.54408	21.28207	4.50477	63.66908	68.17385	2.99168	10.61294
1288	11.45439	21.90613	4.62461	62.01487	66.63948	2.83094	11.18589
1293	10.72513	22.38952	4.32143	62.56392	66.88535	2.79434	10.36083
1299	9.46718	22.92767	4.52905	63.0761	67.60515	2.75109	10.77044	8.49112	68.73205	1.87562	20.90121	22.77683	0.3041	13.4606
1302	9.46801	23.63695	2.9932	63.90184	66.89504	2.70347	7.02609	10.91083	34.11285	3.0159	51.96042	54.97632	1.52319	8.70633
1314	9.51216	23.4721	4.56095	62.45479	67.01574	2.66081	10.9542	6.8756	54.04801	3.08372	35.99267	39.07639	0.66594	12.85146
1317	8.58613	23.77373	4.87036	62.76978	67.64013	2.6403	11.63862	10.50541	40.67111	2.84482	45.97866	48.82348	1.1305	9.2809
1327	9.07197	24.05462	2.99931	63.8741	66.87341	2.65538	7.04348	10.8077	49.36933	2.38991	37.43306	39.82297	0.75823	9.57673
1337	9.00301	23.96073	4.65924	62.37703	67.03627	2.6033	11.20421	12.10949	28.6889	4.08581	55.1158	59.20162	1.92115	11.11972
1342	9.64206	22.84735	4.47829	63.0323	67.51059	2.75885	10.65713	11.16153	33.78364	3.46781	51.58701	55.05482	1.52698	10.08339
1344	9.01374	23.76891	4.64404	62.57331	67.21735	2.63257	11.13264	7.49776	54.41734	3.49278	34.59212	38.0849	0.63568	15.14556
1346	9.80513	23.03486	4.57545	62.58457	67.16002	2.71695	10.96623	12.07885	37.23065	3.31272	47.37779	50.6905	1.27255	10.4882
1348	9.5836	22.63216	4.58722	63.19703	67.78425	2.79236	10.8879	9.87599	34.17317	3.52393	52.42691	55.95084	1.53415	10.08241
1351	9.17616	23.53056	3.2789	64.01438	67.29328	2.72048	7.6832
1354	9.74688	22.45288	4.73459	63.06565	67.80024	2.8088	11.2611	11.24444	38.70473	2.93985	47.11098	50.05083	1.21719	9.36041
1356	9.07908	22.28169	5.11932	63.51992	68.63923	2.85077	12.08909
1361	9.72766	23.65443	1.84461	64.77331	66.61792	2.73832	4.27168	7.82918	31.2745	6.39363	54.50268	60.89631	1.74272	17.59628
1364	9.80067	23.80755	2.9424	63.44939	66.39178	2.6651	6.95609	11.23342	40.28225	2.82811	45.65622	48.48434	1.13341	9.29154
1366	9.2848	22.64751	4.86895	63.19874	68.06769	2.79054	11.55629	10.09789	45.88933	2.5511	41.46168	44.01278	0.90351	9.22936
1371	9.1326	23.53044	4.22764	63.10932	67.33696	2.68203	10.04838	10.41588	41.35838	3.93253	44.29321	48.22573	1.07096	13.31759
1373	10.09591	21.39683	4.61729	63.88997	68.50725	2.98595	10.8404	10.29615	35.24495	3.76418	50.69471	54.4589	1.43835	11.1378
1375	9.3133	23.1705	4.39231	63.12389	67.5162	2.72432	10.43737	7.6756	40.54153	4.10555	47.67732	51.78287	1.17601	12.91669
1382	9.14368	23.04839	4.2565	63.55143	67.80793	2.7573	10.04659	11.11431	30.23523	4.85577	53.79469	58.65046	1.77921	13.53972
1386	9.62131	23.75376	4.9511	61.67383	66.62493	2.59638	12.04181	10.47179	35.57671	2.90675	51.04475	53.9515	1.43478	8.54176
1390	9.59116	23.46613	3.06677	63.87594	66.94271	2.72205	7.20171	7.47241	51.52742	3.40432	37.59586	41.00018	0.72963	13.58256
1393	8.58079	23.00182	4.33049	64.08689	68.41738	2.78617	10.13583	6.51641	48.06808	4.35449	41.06102	45.41552	0.85423	15.90739
1395	8.4936	23.97147	4.4237	63.11122	67.53493	2.63276	10.51407	6.79816	63.93792	2.98946	26.27446	29.26392	0.41094	17.06671
1398	8.90474	23.97023	4.10182	63.0232	67.12503	2.62923	9.76265	10.27926	48.3617	2.64362	38.71543	41.35904	0.80054	10.2425
1400	9.1252	23.64771	4.48662	62.74047	67.22709	2.65313	10.72662	7.49878	47.01161	4.06908	41.42053	45.48961	0.88107	14.73574
1405	9.55595	22.70787	4.62209	63.11408	67.73617	2.77939	10.98508	9.27643	59.43304	2.04701	29.24352	31.29054	0.49204	10.49984
1407	9.94439	22.97977	4.26785	62.80799	67.07584	2.73319	10.19262	6.77884	59.25433	4.60396	29.36287	33.96683	0.49554	23.51931
1411	8.91172	23.18726	4.38224	63.51878	67.90102	2.73938	10.3487	7.35804	54.7221	3.59241	34.32746	37.91987	0.62731	15.69767
1415	9.14093	24.01361	3.09153	63.75393	66.84546	2.65491	7.27374	10.08401	49.20246	2.60178	38.11176	40.71353	0.77459	10.24005
1418	8.75602	23.19303	4.54062	63.51033	68.05095	2.73834	10.72413	10.75696	44.51061	2.6581	42.07433	44.73244	0.94527	9.47646
1421	8.99435	23.43105	4.8692	62.7054	67.5746	2.67617	11.6478	10.99249	56.43282	1.67371	30.90099	32.57469	0.54757	8.12453
1423	9.09453	23.51053	4.96065	62.4343	67.39495	2.65559	11.91809	7.35709	55.67959	2.74166	34.22166	36.96332	0.61462	12.01721
1425	8.56456	23.40943	4.27255	63.75346	68.02601	2.72341	10.05252	8.5995	62.01492	2.06937	27.31621	29.38558	0.44048	11.36344
1428	9.32211	23.99627	3.27369	63.40794	66.68162	2.64241	7.74435	6.44789	51.49446	4.16851	37.88914	42.05765	0.73579	16.50281
1433	8.56699	22.49356	4.77284	64.16661	68.93945	2.85267	11.15729	10.63305	42.20725	3.73089	43.42881	47.15971	1.02894	12.88624
1438	8.89096	22.73207	4.75129	63.62568	68.37697	2.79894	11.20134	9.16763	62.9603	2.39739	25.47468	27.87208	0.40462	14.11632
1440	9.81923	24.37109	4.37409	61.43559	65.80968	2.52084	10.6797	14.15255	42.35624	2.3735	41.1177	43.49121	0.97076	8.65869
1444	9.56435	23.99473	3.15013	63.29079	66.44092	2.6377	7.46585	9.76201	42.34531	3.31458	44.5781	47.89269	1.05273	11.15317
1460	9.11399	23.18859	3.37543	64.32198	67.69742	2.77386	7.87157	10.02962	38.55915	2.90087	48.51037	51.41123	1.25808	8.96983
1476	9.02655	24.27939	3.28487	63.40919	66.69406	2.61165	7.77065	9.22955	57.95965	2.26638	30.54442	32.81079	0.52699	11.1299
1498	8.55489	23.95052	3.36866	64.12592	67.49458	2.67743	7.8798	9.47935	50.2926	2.83993	37.38812	40.22806	0.74341	11.39372
1504	9.18386	24.09859	3.35657	63.36099	66.71755	2.62924	7.9463
1516	9.07279	24.79767	3.02588	63.10366	66.12954	2.54474	7.19265	9.98668	51.79533	2.02841	36.18958	38.21799	0.6987	8.40745